* Estimated atmospheric values for TJCH. Height estimate:    36.7576 +/- 0.1295 m.
* METUTIL Version 3.0  2009-08-27
* Input files: otesta.041                  tjch0410.15m  ZTD-file sigmas scaled by   1.0
* Yr  Doy Hr Mn Sec  Total Zen  Wet Zen  Sig Zen    PW   Sig PW (mm)  Press (hPa)  Temp (K) ZHD (mm)   Grad NS   Sig NS  Grad EW   Sig EW (mm)
 2015  41  0  0  0.    2344.30     6.56   13.00    1.02    2.02        1025.00      275.66   2337.74    -35.70    27.60    11.40    28.90
 2015  41  1  0  0.    2351.00    14.33   12.10    2.23    1.89        1024.53      277.23   2336.67    -35.88    27.56    11.58    28.71
 2015  41  2  0  0.    2347.40    12.81    9.30    2.00    1.45        1023.62      278.53   2334.59    -36.06    27.51    11.76    28.51
 2015  41  3  0  0.    2345.80    13.27    8.20    2.08    1.29        1022.72      279.84   2332.53    -36.24    27.46    11.94    28.31
 2015  41  4  0  0.    2340.10     8.29    9.60    1.30    1.51        1022.40      280.46   2331.81    -36.42    27.42    12.12    28.11
 2015  41  5  0  0.    2335.00     6.84    8.30    1.08    1.31        1020.80      281.56   2328.16    -36.60    27.37    12.30    27.91
 2015  41  6  0  0.    2332.20     6.32    8.80    1.00    1.39        1019.80      282.56   2325.88    -36.78    27.33    12.47    27.71
 2015  41  7  0  0.    2329.20     5.15    9.60    0.82    1.52        1019.00      283.16   2324.05    -36.95    27.28    12.65    27.51
 2015  41  8  0  0.    2328.80     6.12    8.40    0.97    1.33        1018.40      283.56   2322.68    -37.13    27.24    12.83    27.31
 2015  41  9  0  0.    2336.60    13.92    8.70    2.20    1.38        1018.40      282.56   2322.68    -37.31    27.19    13.01    27.10
 2015  41 10  0  0.    2339.50    15.90    8.40    2.50    1.32        1018.80      280.56   2323.60    -37.49    27.15    13.19    26.89
 2015  41 11  0  0.    2337.80    13.98    7.70    2.19    1.21        1018.90      279.66   2323.82    -37.67    27.10    13.37    26.68
 2015  41 12  0  0.    2334.70    11.33    8.60    1.77    1.35        1018.70      278.66   2323.37    -37.85    27.06    13.55    26.47
 2015  41 13  0  0.    2340.70    17.33    8.90    2.71    1.39        1018.70      278.16   2323.37    -38.03    27.01    13.73    26.26
 2015  41 14  0  0.    2340.50    18.27    8.40    2.86    1.31        1018.20      278.16   2322.23    -38.21    26.96    13.91    26.05
 2015  41 15  0  0.    2348.20    27.34    7.60    4.27    1.19        1017.60      278.26   2320.86    -38.39    26.92    14.09    25.83
 2015  41 16  0  0.    2354.80    34.17    7.50    5.35    1.17        1017.50      278.61   2320.63    -38.57    26.87    14.27    25.61
 2015  41 17  0  0.    2354.40    34.45    7.50    5.39    1.17        1017.20      278.86   2319.95    -38.75    26.83    14.45    25.39
 2015  41 18  0  0.    2351.30    32.95    7.70    5.16    1.21        1016.50      278.86   2318.35    -38.92    26.78    14.62    25.17
 2015  41 19  0  0.    2349.30    32.55    7.50    5.09    1.17        1015.80      278.56   2316.75    -39.10    26.73    14.80    24.95
 2015  41 20  0  0.    2354.50    39.34    7.90    6.16    1.24        1015.10      278.56   2315.16    -39.28    26.69    14.98    24.72
 2015  41 21  0  0.    2355.60    40.50    7.40    6.33    1.16        1015.08      278.46   2315.10    -39.46    26.64    15.16    24.50
 2015  41 22  0  0.    2356.10    40.71    7.70    6.36    1.20        1015.20      278.26   2315.39    -39.64    26.59    15.34    24.27
 2015  41 23  0  0.    2353.50    38.11    7.70    5.96    1.20        1015.20      278.66   2315.39    -39.82    26.55    15.52    24.03
 2015  42  0  0  0.    2353.20    36.45   11.90    5.71    1.87        1015.80      279.41   2316.75    -40.00    26.50    15.70    23.80
